Folder: battery_data (part 2)

File: OX_1-6_pouch_LCO_40C_0-100_2-1.84C_f_cycle_data.csv
Cycle_Index,Start_Time,End_Time,Test_Time (s),Min_Current (A),Max_Current (A),Min_Voltage (V),Max_Voltage (V),Charge_Capacity (Ah),Discharge_Capacity (Ah),Charge_Energy (Wh),Discharge_Energy (Wh)
1.0,,,7046.379,-0.74,0.74,2.699,4.199,0.717,0.731,2.74,2.731
100.0,,,626367.894,-0.74,0.74,2.719,4.199,0.708,0.723,2.706,2.702
200.0,,,1244664.519,-0.74,0.74,2.719,4.199,0.703,0.718,2.688,2.684
300.0,,,1992292.756,-0.74,0.74,2.719,4.2,0.7,0.715,2.676,2.671
400.0,,,2608877.228,-0.74,0.74,2.719,4.199,0.694,0.71,2.657,2.654
500.0,,,3224704.209,-0.74,0.74,2.719,4.199,0.691,0.706,2.643,2.639
600.0,,,3839889.946,-0.74,0.74,2.72,4.199,0.687,0.702,2.63,2.626
700.0,,,4497514.157,-0.74,0.74,2.735,4.2,0.686,0.702,2.624,2.624
800.0,,,5111389.737,-0.74,0.74,2.735,4.199,0.681,0.698,2.608,2.61
900.0,,,5724597.557,-0.74,0.74,2.735,4.199,0.678,0.695,2.597,2.599
1000.0,,,6337250.456,-0.74,0.74,2.735,4.2,0.675,0.692,2.585,2.588
1100.0,,,6949328.633,-0.74,0.74,2.735,4.199,0.672,0.689,2.574,2.576
1200.0,,,7560807.58,-0.74,0.74,2.735,4.199,0.669,0.686,2.562,2.565
1300.0,,,8171728.024,-0.74,0.74,2.735,4.199,0.665,0.683,2.551,2.554
1400.0,,,8782079.126,-0.74,0.74,2.735,4.199,0.662,0.68,2.539,2.543
1600.0,,,10092430.839,-0.74,0.74,2.735,4.199,0.656,0.674,2.517,2.52
1800.0,,,11578526.037,-0.74,0.74,2.735,4.199,0.65,0.668,2.496,2.5
1900.0,,,12250291.313,-0.74,0.74,2.735,4.199,0.647,0.665,2.484,2.488
2000.0,,,12941427.324,-0.74,0.74,2.735,4.199,0.643,0.662,2.471,2.475
2100.0,,,13550559.549,-0.74,0.74,2.735,4.199,0.64,0.659,2.458,2.465
2200.0,,,14248160.34,-0.74,0.74,2.735,4.2,0.637,0.656,2.447,2.452
2300.0,,,14856385.742,-0.74,0.74,2.736,4.199,0.634,0.654,2.436,2.444
2400.0,,,15542872.787,-0.74,0.74,2.736,4.199,0.63,0.65,2.423,2.43
2500.0,,,16150551.269,-0.74,0.74,2.736,4.199,0.628,0.648,2.412,2.421
2600.0,,,17028284.022,-0.74,0.74,2.736,4.2,0.624,0.644,2.4,2.407
2700.0,,,17635167.032,-0.74,0.74,2.736,4.2,0.622,0.643,2.393,2.403
2800.0,,,18241553.704,-0.74,0.74,2.736,4.199,0.62,0.641,2.385,2.394
2900.0,,,19270843.705,-0.74,0.74,2.737,4.199,0.617,0.637,2.373,2.38
3000.0,,,19876656.14,-0.74,0.74,2.737,4.2,0.615,0.636,2.366,2.377
3100.0,,,20481908.533,-0.74,0.74,2.737,4.199,0.612,0.633,2.355,2.367
3200.0,,,21257162.932,-0.74,0.74,2.737,4.199,0.609,0.629,2.344,2.353
3300.0,,,21861994.965,-0.74,0.74,2.737,4.199,0.607,0.628,2.336,2.348
3500.0,,,23229176.146,-0.74,0.74,2.737,4.199,0.602,0.622,2.319,2.329
3600.0,,,23832449.37,-0.74,0.74,2.737,4.2,0.6,0.622,2.312,2.325
3700.0,,,24435392.084,-0.74,0.74,2.737,4.199,0.595,0.62,2.294,2.317
3800.0,,,25486475.021,-0.74,0.74,2.737,4.199,0.595,0.615,2.293,2.302
3900.0,,,26088740.384,-0.74,0.74,2.737,4.199,0.594,0.615,2.287,2.301
4000.0,,,26691358.907,-0.74,0.74,2.737,4.199,0.591,0.613,2.277,2.292
4100.0,,,27449444.507,-0.74,0.74,2.738,4.199,0.587,0.609,2.264,2.278
4200.0,,,28071342.391,-0.74,0.74,2.738,4.199,0.586,0.608,2.259,2.274
4300.0,,,28672345.007,-0.74,0.74,2.738,4.2,0.584,0.607,2.25,2.268
4400.0,,,29273317.998,-0.74,0.74,2.738,4.199,0.582,0.605,2.242,2.261
4500.0,,,29961053.524,-0.74,0.74,2.738,4.199,0.578,0.601,2.23,2.247
4600.0,,,30561063.053,-0.74,0.74,2.739,4.199,0.562,0.585,2.169,2.192
4800.0,,,31947954.26,-0.74,0.74,2.74,4.187,0.562,0.586,2.169,2.185
5000.0,,,34037983.408,-0.74,0.74,2.74,4.2,0.561,0.578,2.164,2.162

File: OX_1-7_pouch_LCO_40C_0-100_2-1.84C_g_cycle_data.csv
Cycle_Index,Start_Time,End_Time,Test_Time (s),Min_Current (A),Max_Current (A),Min_Voltage (V),Max_Voltage (V),Charge_Capacity (Ah),Discharge_Capacity (Ah),Charge_Energy (Wh),Discharge_Energy (Wh)
1.0,,,7011.772,-0.74,0.74,2.699,4.2,0.712,0.728,2.723,2.72
100.0,,,624996.672,-0.74,0.74,2.719,4.199,0.703,0.72,2.689,2.689
200.0,,,1241954.227,-0.74,0.74,2.719,4.2,0.699,0.716,2.672,2.673
300.0,,,1992241.353,-0.74,0.74,2.72,4.199,0.697,0.713,2.666,2.663
400.0,,,2607892.264,-0.74,0.74,2.72,4.199,0.693,0.71,2.65,2.651
500.0,,,3223016.089,-0.74,0.74,2.72,4.199,0.69,0.707,2.639,2.64
600.0,,,3837613.977,-0.74,0.74,2.721,4.199,0.687,0.704,2.63,2.631
700.0,,,4497461.925,-0.74,0.74,2.736,4.199,0.687,0.704,2.628,2.63
800.0,,,5111490.835,-0.74,0.74,2.735,4.199,0.684,0.702,2.617,2.621
900.0,,,5725103.471,-0.74,0.74,2.735,4.199,0.682,0.7,2.609,2.613
1000.0,,,6338291.932,-0.74,0.74,2.735,4.199,0.679,0.697,2.6,2.605
1100.0,,,6951077.749,-0.74,0.74,2.735,4.199,0.677,0.695,2.593,2.597
1200.0,,,7563444.583,-0.74,0.74,2.735,4.199,0.675,0.694,2.585,2.59
1300.0,,,8175427.019,-0.74,0.74,2.735,4.199,0.673,0.692,2.578,2.583
1400.0,,,8787042.454,-0.74,0.74,2.735,4.199,0.671,0.69,2.57,2.576
1600.0,,,10092447.378,-0.74,0.74,2.736,4.199,0.667,0.686,2.557,2.562
1800.0,,,11578549.164,-0.74,0.74,2.736,4.199,0.663,0.682,2.54,2.547
1900.0,,,12250321.732,-0.74,0.74,2.736,4.199,0.661,0.68,2.533,2.537
2000.0,,,12941469.833,-0.74,0.74,2.736,4.199,0.658,0.677,2.524,2.529
2100.0,,,13550455.44,-0.74,0.74,2.736,4.199,0.656,0.676,2.515,2.523
2200.0,,,14248221.177,-0.74,0.74,2.736,4.199,0.654,0.673,2.508,2.514
2300.0,,,14856480.637,-0.74,0.74,2.736,4.199,0.652,0.672,2.499,2.508
2400.0,,,15542948.078,-0.74,0.74,2.736,4.199,0.649,0.669,2.492,2.498
2500.0,,,16150471.485,-0.74,0.74,2.737,4.2,0.647,0.668,2.483,2.492
2600.0,,,17028364.542,-0.74,0.74,2.737,4.199,0.645,0.665,2.474,2.481
2700.0,,,17635087.467,-0.74,0.74,2.737,4.2,0.642,0.663,2.466,2.476
2800.0,,,18241485.664,-0.74,0.74,2.737,4.199,0.64,0.661,2.458,2.468
2900.0,,,19270930.354,-0.74,0.74,2.737,4.199,0.638,0.658,2.449,2.458
3000.0,,,19876505.389,-0.74,0.74,2.737,4.2,0.636,0.657,2.442,2.453
3100.0,,,20481790.705,-0.74,0.74,2.737,4.2,0.634,0.655,2.434,2.445
3200.0,,,21257254.566,-0.74,0.74,2.738,4.199,0.631,0.652,2.425,2.434
3300.0,,,21861766.359,-0.74,0.74,2.737,4.2,0.629,0.651,2.418,2.43
3500.0,,,23229287.061,-0.74,0.74,2.737,4.199,0.626,0.647,2.408,2.416
3600.0,,,23832344.522,-0.74,0.74,2.737,4.199,0.625,0.646,2.401,2.412
3700.0,,,24435503.188,-0.74,0.74,2.738,4.199,0.62,0.645,2.383,2.406
3800.0,,,25486590.374,-0.74,0.74,2.737,4.198,0.62,0.642,2.383,2.395
3900.0,,,26089093.699,-0.74,0.74,2.737,4.199,0.619,0.641,2.381,2.393
4000.0,,,26691395.583,-0.74,0.74,2.738,4.2,0.617,0.64,2.374,2.387
4100.0,,,27449574.323,-0.74,0.74,2.738,4.199,0.615,0.637,2.366,2.377
4200.0,,,28071483.217,-0.74,0.74,2.738,4.199,0.614,0.636,2.36,2.372
4300.0,,,28672897.524,-0.74,0.74,2.739,4.199,0.611,0.634,2.352,2.366
4400.0,,,29274062.408,-0.74,0.74,2.739,4.199,0.61,0.633,2.345,2.36
4500.0,,,29961193.545,-0.74,0.74,2.739,4.2,0.607,0.63,2.338,2.35
4600.0,,,30561754.521,-0.74,0.74,2.739,4.199,0.606,0.629,2.331,2.347
4800.0,,,31948304.296,-0.74,0.74,2.74,4.199,0.602,0.626,2.317,2.336
5000.0,,,34038250.994,-0.74,0.74,2.74,4.199,0.598,0.622,2.304,2.321
5100.0,,,34634961.171,-0.74,0.74,2.74,4.199,0.596,0.621,2.296,2.316
5200.0,,,35679136.126,-0.74,0.74,2.741,4.2,0.594,0.618,2.29,2.305
5300.0,,,36277693.981,-0.74,0.74,2.741,4.2,0.593,0.618,2.285,2.304
5400.0,,,36876159.173,-0.74,0.74,2.741,4.2,0.591,0.617,2.278,2.299
5500.0,,,37950382.025,-0.74,0.74,2.741,4.199,0.589,0.614,2.27,2.288
5600.0,,,38548189.393,-0.74,0.74,2.741,4.199,0.588,0.614,2.266,2.287
5700.0,,,39145931.607,-0.74,0.74,2.741,4.2,0.586,0.613,2.26,2.282
5800.0,,,39747620.025,-0.74,0.74,2.741,4.199,0.585,0.611,2.254,2.275
5900.0,,,40344880.738,-0.74,0.74,2.742,4.199,0.583,0.61,2.248,2.27
6000.0,,,40941961.92,-0.74,0.74,2.742,4.199,0.582,0.608,2.242,2.265
6100.0,,,41631835.053,-0.74,0.74,2.742,4.199,0.579,0.605,2.235,2.255
6200.0,,,42228435.79,-0.74,0.74,2.742,4.2,0.579,0.605,2.23,2.254
6300.0,,,42824841.193,-0.74,0.74,2.742,4.2,0.577,0.604,2.225,2.249
6400.0,,,43608154.02,-0.74,0.74,2.742,4.199,0.575,0.601,2.218,2.24
6500.0,,,44204074.659,-0.74,0.74,2.742,4.2,0.574,0.602,2.215,2.239
6600.0,,,44799774.634,-0.74,0.74,2.742,4.199,0.573,0.6,2.209,2.234
6700.0,,,46286986.555,-0.74,0.74,2.742,4.199,0.573,0.598,2.211,2.229
6800.0,,,46882091.894,-0.74,0.74,2.742,4.199,0.572,0.599,2.205,2.228
6900.0,,,47477129.979,-0.74,0.74,2.742,4.199,0.57,0.597,2.199,2.224
7000.0,,,48465622.423,-0.74,0.74,2.743,4.2,0.568,0.594,2.192,2.215
7100.0,,,49059214.418,-0.74,0.74,2.743,4.199,0.567,0.597,2.188,2.219
7200.0,,,49653698.728,-0.74,0.74,2.743,4.199,0.566,0.593,2.182,2.208
7300.0,,,50248032.346,-0.74,0.74,2.743,4.199,0.564,0.592,2.176,2.203
7400.0,,,50863986.205,-0.74,0.74,2.744,4.199,0.562,0.59,2.17,2.196
7500.0,,,51457939.533,-0.74,0.74,2.744,4.199,0.561,0.589,2.164,2.192
7600.0,,,52051703.842,-0.74,0.74,2.744,4.199,0.559,0.588,2.158,2.187
7700.0,,,52697216.98,-0.74,0.74,2.744,4.199,0.557,0.586,2.152,2.179
7800.0,,,53290628.495,-0.74,0.74,2.744,4.199,0.556,0.586,2.148,2.176
7900.0,,,53883808.969,-0.74,0.74,2.745,4.199,0.555,0.584,2.142,2.172
8000.0,,,54593429.769,-0.74,0.74,2.745,4.2,0.553,0.582,2.136,2.165
8100.0,,,55186323.538,-0.74,0.74,2.745,4.2,0.553,0.582,2.134,2.163

File: OX_1-8_pouch_LCO_40C_0-100_2-1.84C_h_cycle_data.csv
Cycle_Index,Start_Time,End_Time,Test_Time (s),Min_Current (A),Max_Current (A),Min_Voltage (V),Max_Voltage (V),Charge_Capacity (Ah),Discharge_Capacity (Ah),Charge_Energy (Wh),Discharge_Energy (Wh)
1.0,,,6997.881,-0.74,0.74,2.7,4.199,0.71,0.727,2.715,2.718
100.0,,,624677.884,-0.74,0.74,2.719,4.199,0.701,0.72,2.682,2.69
300.0,,,1992360.795,-0.74,0.74,2.72,4.2,0.695,0.713,2.658,2.665
400.0,,,2607721.959,-0.74,0.74,2.72,4.199,0.691,0.709,2.642,2.65
500.0,,,3222558.883,-0.74,0.74,2.72,4.199,0.687,0.707,2.63,2.639
600.0,,,3836864.22,-0.74,0.74,2.72,4.2,0.685,0.704,2.62,2.629
700.0,,,4497532.605,-0.74,0.74,2.736,4.199,0.685,0.702,2.62,2.623
800.0,,,5110885.888,-0.74,0.74,2.736,4.199,0.681,0.699,2.608,2.613
900.0,,,5723777.424,-0.74,0.74,2.736,4.199,0.679,0.697,2.6,2.604
1000.0,,,6336241.138,-0.74,0.74,2.735,4.199,0.677,0.695,2.592,2.596
1100.0,,,6948294.398,-0.74,0.74,2.736,4.199,0.675,0.693,2.584,2.589
1200.0,,,7559956.241,-0.74,0.74,2.736,4.2,0.673,0.691,2.576,2.581
1300.0,,,8171206.88,-0.74,0.74,2.736,4.199,0.671,0.689,2.568,2.574
1400.0,,,8782076.125,-0.74,0.74,2.736,4.199,0.669,0.687,2.561,2.567
1600.0,,,10092498.058,-0.74,0.74,2.736,4.199,0.665,0.683,2.548,2.553
1800.0,,,11578602.488,-0.74,0.74,2.736,4.199,0.661,0.68,2.532,2.539
1900.0,,,12250375.483,-0.74,0.74,2.736,4.199,0.658,0.677,2.524,2.529
2000.0,,,12941524.465,-0.74,0.74,2.736,4.2,0.656,0.675,2.515,2.521
2100.0,,,13550104.497,-0.74,0.74,2.736,4.199,0.653,0.673,2.506,2.515
2200.0,,,14248275.778,-0.74,0.74,2.736,4.199,0.651,0.671,2.499,2.505
2300.0,,,14856113.006,-0.74,0.74,2.736,4.199,0.649,0.669,2.49,2.499
2400.0,,,15542998.404,-0.74,0.74,2.736,4.199,0.646,0.666,2.479,2.487
2500.0,,,16150073.362,-0.74,0.74,2.737,4.199,0.643,0.664,2.469,2.48
2600.0,,,17028405.322,-0.74,0.74,2.737,4.199,0.64,0.66,2.458,2.466
2700.0,,,17634659.437,-0.74,0.74,2.737,4.199,0.638,0.659,2.449,2.46
2800.0,,,18241040.192,-0.74,0.74,2.737,4.2,0.635,0.656,2.439,2.45
2900.0,,,19270956.822,-0.74,0.74,2.737,4.199,0.632,0.652,2.427,2.436
3000.0,,,19876045.404,-0.74,0.74,2.737,4.199,0.63,0.651,2.419,2.431
3100.0,,,20481317.394,-0.74,0.74,2.737,4.199,0.627,0.649,2.409,2.422
3200.0,,,21257273.164,-0.74,0.74,2.737,4.2,0.624,0.645,2.399,2.41
3300.0,,,21861297.245,-0.74,0.74,2.738,4.199,0.622,0.644,2.391,2.405
3500.0,,,23229300.958,-0.74,0.74,2.737,4.199,0.618,0.639,2.377,2.387
3600.0,,,23831892.474,-0.74,0.74,2.738,4.199,0.616,0.638,2.369,2.383
3700.0,,,24435037.693,-0.74,0.74,2.737,4.199,0.611,0.636,2.349,2.374
3800.0,,,25486587.659,-0.74,0.74,2.738,4.2,0.61,0.632,2.349,2.359
3900.0,,,26088589.41,-0.74,0.74,2.738,4.199,0.609,0.631,2.342,2.356
4000.0,,,26690867.641,-0.74,0.74,2.738,4.199,0.606,0.629,2.332,2.348
4100.0,,,27449557.832,-0.74,0.74,2.738,4.2,0.603,0.625,2.322,2.335
4200.0,,,28071464.402,-0.74,0.74,2.738,4.199,0.601,0.624,2.315,2.33
4300.0,,,28672338.847,-0.74,0.74,2.739,4.199,0.599,0.622,2.305,2.323
4400.0,,,29273505.851,-0.74,0.74,2.739,4.199,0.596,0.62,2.296,2.314
4500.0,,,29961170.882,-0.74,0.74,2.739,4.199,0.593,0.617,2.286,2.302
4600.0,,,30561197.543,-0.74,0.74,2.739,4.199,0.592,0.616,2.279,2.298
4800.0,,,31947725.794,-0.74,0.74,2.739,4.199,0.587,0.612,2.262,2.284
5000.0,,,34038207.145,-0.74,0.74,2.74,4.199,0.582,0.607,2.245,2.265
5100.0,,,34634395.405,-0.74,0.74,2.74,4.199,0.58,0.606,2.235,2.258
5200.0,,,35679091.032,-0.74,0.74,2.741,4.199,0.577,0.602,2.225,2.245
5300.0,,,36274486.576,-0.74,0.74,2.74,4.199,0.576,0.602,2.22,2.243
5400.0,,,36869608.739,-0.74,0.74,2.741,4.2,0.574,0.6,2.212,2.236
5500.0,,,37950330.991,-0.74,0.74,2.741,4.2,0.57,0.596,2.201,2.224
5600.0,,,38544824.475,-0.74,0.74,2.741,4.199,0.57,0.596,2.197,2.221
5700.0,,,39139014.189,-0.74,0.74,2.741,4.199,0.567,0.594,2.189,2.214
5800.0,,,39747552.06,-0.74,0.74,2.741,4.2,0.565,0.592,2.182,2.206
5900.0,,,40341179.348,-0.74,0.74,2.742,4.2,0.563,0.59,2.173,2.199
6000.0,,,40934518.125,-0.74,0.74,2.742,4.199,0.561,0.588,2.165,2.192
6100.0,,,41631763.759,-0.74,0.74,2.742,4.199,0.557,0.585,2.153,2.181
6200.0,,,42224555.828,-0.74,0.74,2.742,4.2,0.557,0.585,2.151,2.178
6300.0,,,42816991.151,-0.74,0.74,2.742,4.199,0.555,0.583,2.143,2.172
6400.0,,,43608079.7,-0.74,0.74,2.742,4.199,0.551,0.58,2.13,2.161
6500.0,,,44200040.605,-0.74,0.74,2.743,4.198,0.551,0.58,2.128,2.159
6600.0,,,44791622.952,-0.74,0.74,2.742,4.199,0.55,0.578,2.124,2.154
6700.0,,,46286910.882,-0.74,0.74,2.743,4.199,0.55,0.578,2.127,2.154
6800.0,,,46878021.338,-0.74,0.74,2.743,4.199,0.55,0.577,2.122,2.151
6900.0,,,47468797.567,-0.74,0.74,2.743,4.199,0.548,0.576,2.116,2.146
7000.0,,,48465550.603,-0.74,0.74,2.744,4.2,0.544,0.573,2.103,2.136
7100.0,,,49060707.276,-0.74,0.74,2.743,4.199,0.544,0.574,2.1,2.137
7200.0,,,49650774.072,-0.74,0.74,2.744,4.199,0.542,0.571,2.094,2.126
7300.0,,,50240563.24,-0.74,0.74,2.744,4.199,0.54,0.57,2.087,2.12
7400.0,,,50863890.101,-0.74,0.74,2.745,4.199,0.538,0.567,2.079,2.112
7500.0,,,51453346.479,-0.74,0.74,2.745,4.2,0.537,0.566,2.074,2.107
7600.0,,,52042544.389,-0.74,0.74,2.745,4.2,0.535,0.565,2.068,2.102
7700.0,,,52697130.375,-0.74,0.74,2.745,4.199,0.532,0.563,2.058,2.094
7800.0,,,53286023.28,-0.74,0.74,2.746,4.199,0.532,0.562,2.056,2.09
7900.0,,,53874571.423,-0.74,0.74,2.745,4.2,0.53,0.561,2.05,2.085
8000.0,,,54593337.1,-0.74,0.74,2.746,4.199,0.526,0.558,2.036,2.076
8100.0,,,55181663.589,-0.74,0.74,2.746,4.197,0.526,0.559,2.034,2.075