Folder: battery_data

File: OX_1-1_pouch_LCO_40C_0-100_2-1.84C_a_cycle_data.csv
Cycle_Index,Start_Time,End_Time,Test_Time (s),Min_Current (A),Max_Current (A),Min_Voltage (V),Max_Voltage (V),Charge_Capacity (Ah),Discharge_Capacity (Ah),Charge_Energy (Wh),Discharge_Energy (Wh)
1.0,,,7114.998,-0.74,0.74,2.699,4.199,0.721,0.741,2.755,2.768
100.0,,,626168.054,-0.74,0.74,2.719,4.2,0.711,0.732,2.72,2.734
200.0,,,1244220.408,-0.74,0.74,2.719,4.199,0.707,0.728,2.702,2.716
300.0,,,1991927.316,-0.74,0.74,2.72,4.199,0.704,0.725,2.691,2.705
400.0,,,2608450.914,-0.74,0.74,2.72,4.199,0.699,0.72,2.674,2.689
500.0,,,3224266.748,-0.74,0.74,2.72,4.2,0.696,0.717,2.662,2.676
600.0,,,3839408.411,-0.74,0.74,2.721,4.199,0.692,0.714,2.649,2.664
700.0,,,4497377.705,-0.74,0.74,2.735,4.199,0.691,0.709,2.644,2.649
800.0,,,5111830.664,-0.74,0.74,2.735,4.2,0.687,0.706,2.629,2.637
900.0,,,5725685.109,-0.74,0.74,2.735,4.199,0.683,0.702,2.617,2.624
1000.0,,,6338924.186,-0.74,0.74,2.735,4.2,0.68,0.699,2.606,2.613
1100.0,,,6951575.952,-0.74,0.74,2.735,4.199,0.677,0.696,2.594,2.601
1200.0,,,7563608.345,-0.74,0.74,2.735,4.2,0.674,0.693,2.582,2.59
1300.0,,,8175092.015,-0.74,0.74,2.735,4.199,0.671,0.69,2.571,2.579
1400.0,,,8786016.496,-0.74,0.74,2.735,4.199,0.668,0.688,2.56,2.569
1600.0,,,10092412.825,-0.74,0.74,2.735,4.199,0.662,0.682,2.54,2.549
1800.0,,,11578500.473,-0.74,0.74,2.735,4.199,0.656,0.676,2.516,2.526
1900.0,,,12250266.023,-0.74,0.74,2.736,4.2,0.652,0.673,2.504,2.514
2000.0,,,12941411.223,-0.74,0.74,2.736,4.199,0.649,0.67,2.493,2.503
2100.0,,,13549863.07,-0.74,0.74,2.736,4.199,0.646,0.667,2.482,2.494
2200.0,,,14248141.468,-0.74,0.74,2.736,4.199,0.643,0.664,2.471,2.481
2300.0,,,14855860.034,-0.74,0.74,2.736,4.2,0.64,0.661,2.458,2.471
2400.0,,,15542854.178,-0.74,0.74,2.736,4.199,0.637,0.658,2.449,2.46
2500.0,,,16149821.229,-0.74,0.74,2.736,4.199,0.634,0.656,2.438,2.452
2600.0,,,17028260.845,-0.74,0.74,2.736,4.199,0.631,0.653,2.428,2.439
2700.0,,,17634451.603,-0.74,0.74,2.736,4.199,0.629,0.651,2.419,2.433
2800.0,,,18240825.305,-0.74,0.74,2.736,4.199,0.626,0.649,2.409,2.424
2900.0,,,19270817.208,-0.74,0.74,2.737,4.2,0.623,0.645,2.398,2.41
3000.0,,,19875821.603,-0.74,0.74,2.736,4.199,0.621,0.644,2.391,2.406
3100.0,,,20481114.122,-0.74,0.74,2.737,4.199,0.619,0.642,2.382,2.398
3200.0,,,21257138.045,-0.74,0.74,2.737,4.199,0.616,0.639,2.373,2.386
3300.0,,,21861042.687,-0.74,0.74,2.737,4.199,0.614,0.638,2.365,2.382
3500.0,,,23229158.925,-0.74,0.74,2.737,4.199,0.61,0.632,2.351,2.364
3600.0,,,23831585.4,-0.74,0.74,2.737,4.199,0.609,0.632,2.344,2.36
3700.0,,,24434731.244,-0.74,0.74,2.736,4.199,0.604,0.629,2.327,2.352
3800.0,,,25486446.453,-0.74,0.74,2.737,4.2,0.603,0.625,2.324,2.338
3900.0,,,26088318.55,-0.74,0.74,2.737,4.199,0.602,0.625,2.319,2.336
4000.0,,,26690631.406,-0.74,0.74,2.738,4.2,0.6,0.623,2.311,2.329
4100.0,,,27449434.909,-0.74,0.74,2.738,4.199,0.597,0.62,2.303,2.319
4200.0,,,28071338.291,-0.74,0.74,2.738,4.199,0.596,0.619,2.296,2.314
4300.0,,,28672105.421,-0.74,0.74,2.738,4.199,0.593,0.618,2.286,2.307
4400.0,,,29273260.57,-0.74,0.74,2.739,4.199,0.591,0.616,2.278,2.299
4500.0,,,29961051.267,-0.74,0.74,2.739,4.199,0.588,0.613,2.269,2.289
4600.0,,,30560949.288,-0.74,0.74,2.739,4.199,0.587,0.612,2.264,2.285
4800.0,,,31947494.733,-0.74,0.74,2.739,4.2,0.583,0.609,2.249,2.273
5000.0,,,34038101.41,-0.74,0.74,2.74,4.199,0.579,0.604,2.233,2.256
5100.0,,,34634138.903,-0.74,0.74,2.74,4.2,0.577,0.603,2.225,2.25
5200.0,,,35678983.637,-0.74,0.74,2.74,4.2,0.574,0.6,2.219,2.241
5300.0,,,36273512.389,-0.74,0.74,2.74,4.199,0.574,0.6,2.214,2.238
5400.0,,,36867801.252,-0.74,0.74,2.74,4.199,0.572,0.598,2.207,2.232
5500.0,,,37950213.537,-0.74,0.74,2.741,4.199,0.568,0.594,2.195,2.22
5600.0,,,38543849.749,-0.74,0.74,2.74,4.2,0.568,0.594,2.191,2.217
5700.0,,,39137221.699,-0.74,0.74,2.741,4.2,0.566,0.593,2.184,2.212
5800.0,,,39747439.329,-0.74,0.74,2.741,4.2,0.564,0.59,2.177,2.203
5900.0,,,40340259.613,-0.74,0.74,2.741,4.199,0.562,0.589,2.17,2.198
6000.0,,,40932887.218,-0.74,0.74,2.741,4.199,0.561,0.588,2.165,2.193
6100.0,,,41631703.89,-0.74,0.74,2.741,4.199,0.558,0.586,2.157,2.185
6200.0,,,42224000.102,-0.74,0.74,2.741,4.199,0.558,0.586,2.155,2.183
6300.0,,,42816025.666,-0.74,0.74,2.742,4.199,0.556,0.584,2.149,2.178
6400.0,,,43607983.612,-0.74,0.74,2.742,4.199,0.553,0.581,2.139,2.169
6500.0,,,44199624.637,-0.74,0.74,2.742,4.199,0.553,0.582,2.136,2.167
6600.0,,,44790931.682,-0.74,0.74,2.742,4.199,0.552,0.58,2.131,2.162
6700.0,,,46286816.99,-0.74,0.74,2.742,4.199,0.55,0.578,2.127,2.157
6800.0,,,46877527.149,-0.74,0.74,2.742,4.199,0.549,0.578,2.123,2.153
6900.0,,,47467861.292,-0.74,0.74,2.743,4.2,0.548,0.576,2.118,2.149
7000.0,,,48465455.072,-0.74,0.74,2.743,4.199,0.544,0.573,2.106,2.139
7100.0,,,48465455.072,-0.74,0.74,2.743,4.199,0.544,0.573,2.106,2.137
7200.0,,,49060250.103,-0.74,0.74,2.743,4.199,0.544,0.575,2.103,2.141
7300.0,,,49649882.052,-0.74,0.74,2.743,4.199,0.543,0.572,2.098,2.131
7400.0,,,50239345.722,-0.74,0.74,2.743,4.2,0.541,0.57,2.091,2.125
7500.0,,,50863808.992,-0.74,0.74,2.744,4.199,0.539,0.568,2.084,2.117
7600.0,,,51452895.1,-0.74,0.74,2.744,4.199,0.538,0.568,2.079,2.114
7700.0,,,52041755.135,-0.74,0.74,2.744,4.199,0.537,0.567,2.075,2.11
7800.0,,,52697037.471,-0.74,0.74,2.745,4.199,0.534,0.564,2.065,2.102
7900.0,,,53285673.536,-0.74,0.74,2.745,4.199,0.534,0.564,2.064,2.099
8000.0,,,53873988.332,-0.74,0.74,2.745,4.199,0.532,0.563,2.059,2.095
8100.0,,,54593248.74,-0.74,0.74,2.746,4.2,0.528,0.56,2.046,2.086
8200.0,,,55181282.31,-0.74,0.74,2.745,4.198,0.529,0.561,2.045,2.085

File: OX_1-2_pouch_LCO_40C_0-100_2-1.84C_b_cycle_data.csv
Cycle_Index,Start_Time,End_Time,Test_Time (s),Min_Current (A),Max_Current (A),Min_Voltage (V),Max_Voltage (V),Charge_Capacity (Ah),Discharge_Capacity (Ah),Charge_Energy (Wh),Discharge_Energy (Wh)
1.0,,,7066.877,-0.74,0.74,2.699,4.199,0.717,0.735,2.742,2.745
100.0,,,625816.004,-0.74,0.74,2.718,4.199,0.708,0.727,2.707,2.715
200.0,,,1243589.092,-0.74,0.74,2.719,4.199,0.703,0.722,2.69,2.697
300.0,,,1992104.842,-0.74,0.74,2.719,4.199,0.701,0.719,2.68,2.686
400.0,,,2608212.738,-0.74,0.74,2.72,4.199,0.695,0.715,2.661,2.67
500.0,,,3223660.583,-0.74,0.74,2.72,4.2,0.692,0.711,2.648,2.657
600.0,,,3838462.443,-0.74,0.74,2.72,4.199,0.689,0.708,2.636,2.645
700.0,,,4497503.79,-0.74,0.74,2.735,4.199,0.687,0.705,2.631,2.634
800.0,,,5111337.19,-0.74,0.74,2.735,4.199,0.683,0.702,2.617,2.622
900.0,,,5724620.464,-0.74,0.74,2.735,4.199,0.68,0.699,2.606,2.612
1000.0,,,6337386.374,-0.74,0.74,2.735,4.199,0.678,0.696,2.597,2.602
1100.0,,,6949642.908,-0.74,0.74,2.735,4.199,0.675,0.694,2.586,2.592
1200.0,,,7561387.313,-0.74,0.74,2.735,4.199,0.672,0.691,2.576,2.582
1300.0,,,8172594.575,-0.74,0.74,2.735,4.199,0.669,0.688,2.564,2.571
1400.0,,,8783276.55,-0.74,0.74,2.735,4.2,0.666,0.685,2.554,2.561
1600.0,,,10092509.875,-0.74,0.74,2.735,4.2,0.66,0.679,2.533,2.539
1800.0,,,11578598.938,-0.74,0.74,2.735,4.199,0.654,0.674,2.51,2.519
1900.0,,,12250365.907,-0.74,0.74,2.735,4.2,0.651,0.67,2.499,2.505
2000.0,,,12941505.146,-0.74,0.74,2.735,4.2,0.647,0.667,2.486,2.493
2100.0,,,13550081.129,-0.74,0.74,2.736,4.199,0.644,0.665,2.474,2.484
2200.0,,,14248240.017,-0.74,0.74,2.736,4.199,0.641,0.661,2.464,2.471
2300.0,,,14856004.758,-0.74,0.74,2.736,4.199,0.638,0.659,2.453,2.464
2400.0,,,15542955.315,-0.74,0.74,2.736,4.199,0.635,0.656,2.442,2.451
2500.0,,,16149925.341,-0.74,0.74,2.736,4.2,0.633,0.654,2.432,2.445
2600.0,,,17028363.703,-0.74,0.74,2.736,4.199,0.63,0.65,2.421,2.429
2700.0,,,17634516.245,-0.74,0.74,2.737,4.2,0.628,0.649,2.413,2.425
2800.0,,,18240918.232,-0.74,0.74,2.737,4.199,0.625,0.647,2.403,2.416
2900.0,,,19270914.235,-0.74,0.74,2.737,4.199,0.621,0.642,2.389,2.399
3000.0,,,19875911.157,-0.74,0.74,2.737,4.199,0.619,0.641,2.382,2.396
3100.0,,,20481215.627,-0.74,0.74,2.737,4.199,0.616,0.639,2.371,2.386
3200.0,,,21257227.882,-0.74,0.74,2.737,4.199,0.613,0.635,2.359,2.372
3300.0,,,21861218.812,-0.74,0.74,2.737,4.199,0.611,0.634,2.352,2.367
3500.0,,,23229244.342,-0.74,0.74,2.737,4.199,0.606,0.627,2.335,2.346
3600.0,,,23831775.852,-0.74,0.74,2.737,4.2,0.605,0.628,2.331,2.345
3700.0,,,24434845.943,-0.74,0.74,2.736,4.199,0.601,0.626,2.316,2.339
3800.0,,,25486534.599,-0.74,0.74,2.737,4.199,0.599,0.621,2.309,2.321
3900.0,,,26088247.329,-0.74,0.74,2.737,4.199,0.598,0.621,2.305,2.321
4000.0,,,26690751.651,-0.74,0.74,2.737,4.2,0.596,0.619,2.297,2.314
4100.0,,,27449522.565,-0.74,0.74,2.737,4.2,0.592,0.615,2.284,2.3
4200.0,,,28071423.947,-0.74,0.74,2.738,4.199,0.591,0.614,2.279,2.296
4300.0,,,28671869.538,-0.74,0.74,2.738,4.199,0.588,0.613,2.268,2.288
4400.0,,,29272618.375,-0.74,0.74,2.738,4.2,0.586,0.611,2.26,2.28
4500.0,,,29961136.011,-0.74,0.74,2.738,4.199,0.583,0.607,2.249,2.268
4600.0,,,30560776.419,-0.74,0.74,2.739,4.199,0.582,0.607,2.244,2.265
4800.0,,,31947439.275,-0.74,0.74,2.739,4.199,0.578,0.603,2.229,2.252
5000.0,,,34038533.587,-0.74,0.74,2.7,4.199,0.539,0.565,2.085,2.104
5100.0,,,34634289.309,-0.74,0.74,2.744,4.192,0.539,0.578,2.083,2.137
5200.0,,,35679285.473,-0.74,0.74,2.743,4.194,0.539,0.575,2.087,2.131
5300.0,,,36273945.803,-0.74,0.74,2.744,4.189,0.539,0.581,2.083,2.147
5400.0,,,36868130.609,-0.74,0.74,2.744,4.189,0.539,0.581,2.082,2.148
5500.0,,,37950518.433,-0.74,0.74,2.744,4.197,0.539,0.576,2.088,2.134
5600.0,,,38544123.645,-0.74,0.74,2.744,4.192,0.539,0.579,2.084,2.142
5700.0,,,39137198.046,-0.74,0.74,2.745,4.194,0.539,0.578,2.084,2.139
5800.0,,,39747759.659,-0.74,0.74,2.745,4.197,0.539,0.575,2.086,2.13
5900.0,,,40340346.352,-0.74,0.74,2.745,4.199,0.539,0.574,2.084,2.128
6000.0,,,40932523.192,-0.74,0.74,2.745,4.2,0.537,0.573,2.077,2.123
6100.0,,,41631967.87,-0.74,0.74,2.746,4.199,0.531,0.567,2.056,2.105
6200.0,,,42223641.666,-0.74,0.74,2.745,4.193,0.531,0.57,2.053,2.11
6300.0,,,42814913.976,-0.74,0.74,2.746,4.197,0.531,0.568,2.054,2.105
6400.0,,,43608252.53,-0.74,0.74,2.746,4.2,0.526,0.562,2.036,2.087
6500.0,,,44199069.469,-0.74,0.74,2.746,4.193,0.526,0.565,2.032,2.092
6600.0,,,44789346.32,-0.74,0.74,2.747,4.196,0.526,0.564,2.033,2.086
6700.0,,,46287151.897,-0.74,0.74,2.749,4.195,0.526,0.561,2.037,2.08
6800.0,,,46877509.049,-0.74,0.74,2.747,4.194,0.526,0.564,2.033,2.087
6900.0,,,47467041.639,-0.74,0.74,2.747,4.198,0.526,0.562,2.034,2.081
7000.0,,,48465685.146,-0.74,0.74,2.748,4.199,0.519,0.556,2.013,2.065
7100.0,,,49062267.39,-0.74,0.74,2.75,4.198,0.519,0.556,2.011,2.059
7200.0,,,49650765.057,-0.74,0.74,2.75,4.198,0.519,0.557,2.009,2.06
7300.0,,,50238985.699,-0.74,0.74,2.753,4.198,0.519,0.557,2.009,2.06
7400.0,,,50881839.869,-0.74,0.74,2.7,4.199,0.475,0.501,1.842,1.854
7500.0,,,51470798.037,-0.74,0.74,2.755,4.178,0.475,0.562,1.824,2.043
7600.0,,,52060448.261,-0.74,0.74,2.757,4.178,0.475,0.558,1.825,2.032
7700.0,,,52697614.654,-0.74,0.74,2.765,4.167,0.475,0.545,1.834,1.987

File: OX_1-3_pouch_LCO_40C_0-100_2-1.84C_c_cycle_data.csv
Cycle_Index,Start_Time,End_Time,Test_Time (s),Min_Current (A),Max_Current (A),Min_Voltage (V),Max_Voltage (V),Charge_Capacity (Ah),Discharge_Capacity (Ah),Charge_Energy (Wh),Discharge_Energy (Wh)
1.0,,,7070.353,-0.74,0.74,2.699,4.199,0.716,0.737,2.735,2.753
100.0,,,625860.149,-0.74,0.74,2.719,4.199,0.707,0.728,2.702,2.72
200.0,,,1243791.477,-0.74,0.74,2.719,4.2,0.703,0.724,2.687,2.704
300.0,,,1992070.967,-0.74,0.74,2.72,4.199,0.7,0.722,2.678,2.693
400.0,,,2608456.474,-0.74,0.74,2.72,4.199,0.696,0.718,2.661,2.679
500.0,,,3224282.589,-0.74,0.74,2.72,4.2,0.693,0.715,2.65,2.668
600.0,,,3839581.083,-0.74,0.74,2.721,4.199,0.69,0.712,2.639,2.657
700.0,,,4497441.306,-0.74,0.74,2.737,4.199,0.69,0.708,2.64,2.644
800.0,,,5111289.14,-0.74,0.74,2.737,4.2,0.687,0.705,2.628,2.635
900.0,,,5724667.975,-0.74,0.74,2.737,4.199,0.684,0.703,2.619,2.626
1000.0,,,6337571.278,-0.74,0.74,2.737,4.199,0.682,0.701,2.61,2.617
1100.0,,,6950015.172,-0.74,0.74,2.736,4.2,0.679,0.699,2.602,2.609
1200.0,,,7562061.642,-0.74,0.74,2.737,4.199,0.677,0.696,2.593,2.6
1300.0,,,8173642.897,-0.74,0.74,2.736,4.199,0.674,0.694,2.584,2.591
1400.0,,,8784787.089,-0.74,0.74,2.737,4.199,0.672,0.691,2.574,2.582
1600.0,,,10092464.543,-0.74,0.74,2.737,4.199,0.667,0.686,2.556,2.564
1800.0,,,11578557.968,-0.74,0.74,2.737,4.199,0.661,0.681,2.535,2.545
1900.0,,,12250326.991,-0.74,0.74,2.737,4.199,0.658,0.678,2.524,2.533
2000.0,,,12941471.199,-0.74,0.74,2.737,4.199,0.655,0.675,2.514,2.522
2100.0,,,13549491.366,-0.74,0.74,2.737,4.199,0.652,0.673,2.503,2.514
2200.0,,,14248206.992,-0.74,0.74,2.737,4.2,0.649,0.67,2.493,2.502
2300.0,,,14855478.181,-0.74,0.74,2.737,4.199,0.647,0.668,2.482,2.494
2400.0,,,15542928.738,-0.74,0.74,2.737,4.199,0.644,0.665,2.474,2.484
2500.0,,,16149431.961,-0.74,0.74,2.737,4.199,0.641,0.663,2.463,2.476
2600.0,,,17028333.813,-0.74,0.74,2.738,4.199,0.638,0.66,2.453,2.463
2700.0,,,17633999.091,-0.74,0.74,2.737,4.199,0.636,0.658,2.444,2.458
2800.0,,,18240373.328,-0.74,0.74,2.737,4.2,0.633,0.656,2.434,2.448
2900.0,,,19270889.558,-0.74,0.74,2.738,4.199,0.63,0.652,2.423,2.435
3000.0,,,19875370.34,-0.74,0.74,2.738,4.199,0.628,0.651,2.415,2.43
3100.0,,,20480634.437,-0.74,0.74,2.738,4.199,0.626,0.649,2.406,2.421
3200.0,,,21257204.773,-0.74,0.74,2.738,4.199,0.623,0.645,2.395,2.409
3500.0,,,23229219.696,-0.74,0.74,2.738,4.199,0.616,0.638,2.372,2.385
3600.0,,,23831240.613,-0.74,0.74,2.738,4.199,0.615,0.638,2.366,2.381
3700.0,,,24434387.81,-0.74,0.74,2.738,4.199,0.611,0.636,2.352,2.374
3800.0,,,25486516.798,-0.74,0.74,2.738,4.199,0.61,0.632,2.349,2.362
3900.0,,,26087942.674,-0.74,0.74,2.738,4.199,0.608,0.632,2.342,2.359
4000.0,,,26690223.191,-0.74,0.74,2.738,4.199,0.606,0.63,2.333,2.351
4100.0,,,27449506.359,-0.74,0.74,2.739,4.199,0.604,0.627,2.325,2.34
4200.0,,,28071409.867,-0.74,0.74,2.739,4.199,0.602,0.626,2.319,2.335
4300.0,,,28671683.435,-0.74,0.74,2.739,4.199,0.599,0.624,2.309,2.328
4400.0,,,29272870.413,-0.74,0.74,2.739,4.199,0.597,0.622,2.301,2.321
4500.0,,,29961115.185,-0.74,0.74,2.739,4.199,0.594,0.618,2.291,2.309
4600.0,,,30560554.041,-0.74,0.74,2.739,4.199,0.592,0.617,2.283,2.304
4800.0,,,31947092.033,-0.74,0.74,2.74,4.199,0.588,0.614,2.268,2.291
5000.0,,,34038154.305,-0.74,0.74,2.74,4.2,0.584,0.609,2.251,2.273
5100.0,,,34633777.725,-0.74,0.74,2.741,4.199,0.581,0.608,2.242,2.266
5200.0,,,35679042.697,-0.74,0.74,2.741,4.199,0.579,0.604,2.236,2.256
5300.0,,,36274206.344,-0.74,0.74,2.74,4.199,0.578,0.604,2.23,2.254
5400.0,,,36869114.665,-0.74,0.74,2.741,4.199,0.576,0.603,2.223,2.247
5500.0,,,37950282.459,-0.74,0.74,2.741,4.199,0.573,0.599,2.214,2.237
5600.0,,,38544657.169,-0.74,0.74,2.741,4.199,0.573,0.6,2.21,2.235
5700.0,,,39138776.791,-0.74,0.74,2.741,4.199,0.571,0.598,2.203,2.23
5800.0,,,39747503.716,-0.74,0.74,2.741,4.199,0.569,0.596,2.196,2.221
5900.0,,,40341058.726,-0.74,0.74,2.741,4.199,0.567,0.594,2.187,2.215
6000.0,,,40934339.461,-0.74,0.74,2.742,4.199,0.565,0.592,2.18,2.208
6100.0,,,41631721.402,-0.74,0.74,2.742,4.199,0.562,0.589,2.171,2.198
6200.0,,,42224400.734,-0.74,0.74,2.742,4.199,0.561,0.589,2.167,2.194
6300.0,,,42816815.868,-0.74,0.74,2.742,4.199,0.559,0.587,2.16,2.188
6400.0,,,43608035.571,-0.74,0.74,2.742,4.2,0.557,0.585,2.152,2.181
6500.0,,,44199979.982,-0.74,0.74,2.743,4.199,0.556,0.585,2.149,2.178
6600.0,,,44791614.494,-0.74,0.74,2.743,4.2,0.555,0.583,2.142,2.172
6700.0,,,46286875.834,-0.74,0.74,2.743,4.199,0.555,0.582,2.145,2.172
6800.0,,,46878039.349,-0.74,0.74,2.743,4.199,0.555,0.583,2.143,2.171
6900.0,,,47468914.111,-0.74,0.74,2.742,4.199,0.553,0.581,2.136,2.166
7000.0,,,48465516.18,-0.74,0.74,2.744,4.2,0.55,0.579,2.127,2.158
7100.0,,,49060840.865,-0.74,0.74,2.743,4.199,0.55,0.58,2.125,2.16
7200.0,,,49651183.881,-0.74,0.74,2.744,4.2,0.548,0.578,2.119,2.151
7300.0,,,50241290.166,-0.74,0.74,2.744,4.199,0.547,0.576,2.112,2.145
7400.0,,,50863863.422,-0.74,0.74,2.744,4.2,0.545,0.574,2.106,2.138
7500.0,,,51453618.461,-0.74,0.74,2.744,4.199,0.543,0.573,2.1,2.133
7600.0,,,52043142.281,-0.74,0.74,2.745,4.199,0.542,0.572,2.094,2.127
7700.0,,,52697094.884,-0.74,0.74,2.745,4.199,0.54,0.57,2.087,2.122
7800.0,,,53286287.558,-0.74,0.74,2.745,4.2,0.539,0.569,2.083,2.118
7900.0,,,53875234.283,-0.74,0.74,2.745,4.199,0.537,0.568,2.078,2.113
8000.0,,,54593312.976,-0.74,0.74,2.745,4.199,0.535,0.566,2.071,2.108
8100.0,,,55182056.223,-0.74,0.74,2.746,4.199,0.535,0.566,2.069,2.104

File: OX_1-4_pouch_LCO_40C_0-100_2-1.84C_d_cycle_data.csv
Cycle_Index,Start_Time,End_Time,Test_Time (s),Min_Current (A),Max_Current (A),Min_Voltage (V),Max_Voltage (V),Charge_Capacity (Ah),Discharge_Capacity (Ah),Charge_Energy (Wh),Discharge_Energy (Wh)
1.0,,,7075.686,-0.74,0.74,2.7,4.199,0.719,0.734,2.751,2.743
100.0,,,626608.105,-0.74,0.74,2.719,4.2,0.711,0.726,2.717,2.712
200.0,,,1245153.176,-0.74,0.74,2.72,4.199,0.705,0.721,2.699,2.693
300.0,,,1992200.8,-0.74,0.74,2.72,4.2,0.702,0.717,2.684,2.679
400.0,,,2608761.935,-0.74,0.74,2.72,4.199,0.696,0.712,2.664,2.661
500.0,,,3224481.995,-0.74,0.74,2.721,4.199,0.692,0.708,2.648,2.646
600.0,,,3839504.113,-0.74,0.74,2.721,4.2,0.688,0.703,2.634,2.63
700.0,,,4497465.882,-0.74,0.74,2.736,4.2,0.684,0.701,2.62,2.622
800.0,,,5111124.789,-0.74,0.74,2.736,4.199,0.68,0.698,2.605,2.608
900.0,,,5724152.545,-0.74,0.74,2.735,4.199,0.676,0.694,2.591,2.595
1000.0,,,6336493.337,-0.74,0.74,2.735,4.199,0.673,0.691,2.578,2.582
1100.0,,,6948104.28,-0.74,0.74,2.735,4.199,0.669,0.687,2.563,2.569
1200.0,,,7559092.058,-0.74,0.74,2.735,4.199,0.664,0.683,2.547,2.553
1300.0,,,8169230.422,-0.74,0.74,2.735,4.199,0.66,0.679,2.532,2.538
1400.0,,,8778711.976,-0.74,0.74,2.735,4.2,0.656,0.674,2.517,2.523
1600.0,,,10092351.405,-0.74,0.74,2.735,4.2,0.648,0.667,2.489,2.495
1800.0,,,11578426.667,-0.74,0.74,2.735,4.199,0.64,0.659,2.459,2.467
1900.0,,,12250186.514,-0.74,0.74,2.736,4.199,0.636,0.655,2.445,2.452
2000.0,,,12941322.386,-0.74,0.74,2.736,4.2,0.632,0.651,2.43,2.437
2100.0,,,13550781.955,-0.74,0.74,2.736,4.199,0.629,0.649,2.417,2.427
2200.0,,,14248048.868,-0.74,0.74,2.736,4.199,0.625,0.644,2.403,2.412
2300.0,,,14856606.546,-0.74,0.74,2.736,4.199,0.622,0.642,2.392,2.403
2400.0,,,15542771.047,-0.74,0.74,2.736,4.199,0.619,0.639,2.383,2.392
2500.0,,,16150675.512,-0.74,0.74,2.736,4.199,0.617,0.638,2.372,2.385
2600.0,,,17028163.421,-0.74,0.74,2.737,4.199,0.612,0.633,2.357,2.367
2700.0,,,17635153.894,-0.74,0.74,2.737,4.199,0.61,0.631,2.348,2.36
2800.0,,,18241538.099,-0.74,0.74,2.737,4.199,0.608,0.629,2.339,2.352
2900.0,,,19270725.666,-0.74,0.74,2.737,4.2,0.603,0.624,2.325,2.335
3000.0,,,19876621.008,-0.74,0.74,2.737,4.199,0.602,0.624,2.319,2.333
3100.0,,,20481796.79,-0.74,0.74,2.737,4.199,0.599,0.621,2.306,2.322
3200.0,,,21257031.229,-0.74,0.74,2.737,4.199,0.595,0.617,2.296,2.309
3300.0,,,21862044.904,-0.74,0.74,2.738,4.2,0.594,0.616,2.289,2.305
3500.0,,,23229043.724,-0.74,0.74,2.737,4.199,0.589,0.61,2.27,2.284
3600.0,,,23832696.26,-0.74,0.74,2.738,4.199,0.587,0.609,2.262,2.278
3700.0,,,24435561.122,-0.74,0.74,2.737,4.199,0.582,0.607,2.244,2.27
3800.0,,,25486332.735,-0.74,0.74,2.737,4.199,0.58,0.602,2.239,2.253
3900.0,,,26088932.782,-0.74,0.74,2.738,4.199,0.579,0.602,2.235,2.252
4000.0,,,26691466.65,-0.74,0.74,2.738,4.2,0.578,0.601,2.228,2.247
4100.0,,,27449321.641,-0.74,0.74,2.738,4.199,0.573,0.596,2.214,2.233
4200.0,,,28071212.116,-0.74,0.74,2.738,4.199,0.572,0.595,2.208,2.227
4300.0,,,28672430.162,-0.74,0.74,2.739,4.199,0.569,0.593,2.198,2.22
4400.0,,,29273257.039,-0.74,0.74,2.739,4.199,0.567,0.592,2.19,2.213
4500.0,,,29960935.151,-0.74,0.74,2.739,4.2,0.564,0.588,2.178,2.2
4600.0,,,30561440.7,-0.74,0.74,2.739,4.199,0.563,0.587,2.174,2.196
4800.0,,,31948136.15,-0.74,0.74,2.74,4.199,0.559,0.584,2.159,2.185
5000.0,,,34038009.175,-0.74,0.74,2.74,4.2,0.557,0.582,2.151,2.175
5100.0,,,34629500.397,-0.74,0.74,2.741,4.2,0.555,0.581,2.143,2.17

File: OX_1-5_pouch_LCO_40C_0-100_2-1.84C_e_cycle_data.csv
Cycle_Index,Start_Time,End_Time,Test_Time (s),Min_Current (A),Max_Current (A),Min_Voltage (V),Max_Voltage (V),Charge_Capacity (Ah),Discharge_Capacity (Ah),Charge_Energy (Wh),Discharge_Energy (Wh)
1.0,,,7077.602,-0.74,0.74,2.699,4.199,0.717,0.737,2.739,2.755
100.0,,,625238.568,-0.74,0.74,2.718,4.199,0.707,0.728,2.703,2.72
200.0,,,1242322.725,-0.74,0.74,2.719,4.199,0.702,0.723,2.684,2.701
300.0,,,1992252.032,-0.74,0.74,2.72,4.2,0.699,0.72,2.673,2.687
400.0,,,2607622.187,-0.74,0.74,2.72,4.199,0.694,0.715,2.653,2.671
500.0,,,3222267.051,-0.74,0.74,2.721,4.199,0.69,0.712,2.639,2.658
600.0,,,3836256.663,-0.74,0.74,2.72,4.2,0.687,0.709,2.627,2.646
700.0,,,4497523.285,-0.74,0.74,2.734,4.2,0.686,0.704,2.627,2.631
800.0,,,5110743.309,-0.74,0.74,2.734,4.199,0.683,0.701,2.613,2.62
900.0,,,5723417.587,-0.74,0.74,2.734,4.199,0.68,0.698,2.602,2.609
1000.0,,,6335541.511,-0.74,0.74,2.734,4.199,0.677,0.696,2.592,2.599
1100.0,,,6947144.181,-0.74,0.74,2.734,4.199,0.674,0.693,2.58,2.588
1200.0,,,7558173.367,-0.74,0.74,2.734,4.199,0.671,0.69,2.57,2.578
1300.0,,,8168689.66,-0.74,0.74,2.734,4.199,0.668,0.687,2.56,2.568
1400.0,,,8778686.789,-0.74,0.74,2.734,4.199,0.665,0.685,2.55,2.558
1600.0,,,10092479.95,-0.74,0.74,2.734,4.199,0.659,0.679,2.529,2.537
1800.0,,,11578566.628,-0.74,0.74,2.734,4.199,0.653,0.673,2.505,2.515
1900.0,,,12250333.366,-0.74,0.74,2.735,4.2,0.65,0.67,2.493,2.502
2000.0,,,12941470.625,-0.74,0.74,2.735,4.2,0.646,0.667,2.482,2.491
2100.0,,,13549512.084,-0.74,0.74,2.735,4.199,0.643,0.664,2.469,2.482
2200.0,,,14248210.208,-0.74,0.74,2.735,4.199,0.641,0.661,2.461,2.47
2300.0,,,14855404.029,-0.74,0.74,2.735,4.199,0.638,0.659,2.449,2.462
2400.0,,,15542925.891,-0.74,0.74,2.735,4.199,0.635,0.656,2.439,2.45
2500.0,,,16149469.698,-0.74,0.74,2.736,4.2,0.632,0.654,2.428,2.442
2600.0,,,17028339.626,-0.74,0.74,2.736,4.199,0.629,0.65,2.418,2.429
2700.0,,,17634071.865,-0.74,0.74,2.736,4.199,0.626,0.649,2.408,2.423
2800.0,,,18240491.313,-0.74,0.74,2.736,4.199,0.624,0.646,2.399,2.414
2900.0,,,19270894.618,-0.74,0.74,2.736,4.199,0.621,0.643,2.39,2.403
3000.0,,,19875506.422,-0.74,0.74,2.736,4.2,0.619,0.642,2.382,2.398
3100.0,,,20480847.455,-0.74,0.74,2.736,4.199,0.617,0.64,2.373,2.389
3200.0,,,21257222.156,-0.74,0.74,2.737,4.199,0.614,0.637,2.364,2.378
3300.0,,,21860753.077,-0.74,0.74,2.737,4.199,0.612,0.636,2.355,2.373
3500.0,,,23229247.12,-0.74,0.74,2.737,4.199,0.607,0.629,2.339,2.353
3600.0,,,23831271.499,-0.74,0.74,2.737,4.2,0.606,0.629,2.331,2.349
3700.0,,,24434332.675,-0.74,0.74,2.737,4.199,0.602,0.626,2.316,2.341
3800.0,,,25486538.662,-0.74,0.74,2.737,4.199,0.6,0.623,2.314,2.327
3900.0,,,26087786.335,-0.74,0.74,2.736,4.199,0.599,0.622,2.307,2.325
4000.0,,,26690279.961,-0.74,0.74,2.737,4.2,0.596,0.62,2.297,2.317
4100.0,,,27449511.343,-0.74,0.74,2.737,4.2,0.594,0.617,2.289,2.305
4200.0,,,28071413.481,-0.74,0.74,2.738,4.2,0.592,0.616,2.282,2.301
4300.0,,,28671455.563,-0.74,0.74,2.738,4.199,0.59,0.614,2.273,2.294
4400.0,,,29272086.397,-0.74,0.74,2.738,4.199,0.587,0.612,2.264,2.287
4500.0,,,29961131.504,-0.74,0.74,2.738,4.2,0.585,0.61,2.256,2.276
4600.0,,,30560370.803,-0.74,0.74,2.738,4.199,0.584,0.609,2.25,2.273
4800.0,,,31946975.56,-0.74,0.74,2.739,4.2,0.579,0.605,2.234,2.26
5000.0,,,34037995.5,-0.74,0.74,2.699,4.199,0.43,0.456,1.664,1.672